File: PT1000 Check/20240703002_details.csv
,DataPoint,Cycle Index,Step Index,Step Type,Time,Total Time,Current(A),Voltage(V),Capacity(Ah),Energy(Wh),Date,Power(W),V1(V),T1(℃),Aux. ΔV(V),Aux. ΔT(℃)
0,1,1,1,Rest,00:00:00,00:00:00,0.0,-0.0062,0.0,0.0,2024-07-30 20:14:11,0.0,-0.0235,25.1,0,0
30,31,1,1,Rest,00:00:29,00:00:29,0.0,-0.0031,0.0,0.0,2024-07-30 20:14:40,0.0,-0.0047,24.9,0,0
60,61,1,2,CC Chg,00:00:29,00:00:58,0.00098,1.0745,1e-05,1e-05,2024-07-30 20:15:09,0.00105,1.0686,25.1,0,0
90,91,1,2,CC Chg,00:00:59,00:01:28,0.00099,1.0708,2e-05,2e-05,2024-07-30 20:15:39,0.00106,1.0717,25.1,0,0
120,121,1,2,CC Chg,00:01:29,00:01:58,0.00099,1.0698,2e-05,3e-05,2024-07-30 20:16:09,0.00106,1.068,25.1,0,0
150,151,1,2,CC Chg,00:01:59,00:02:28,0.00098,1.0711,3e-05,3e-05,2024-07-30 20:16:39,0.00105,1.0685,25.1,0,0
180,181,1,2,CC Chg,00:02:29,00:02:58,0.00099,1.0704,4e-05,4e-05,2024-07-30 20:17:09,0.00106,1.0709,25.1,0,0
210,211,1,2,CC Chg,00:02:59,00:03:28,0.00099,1.0735,5e-05,5e-05,2024-07-30 20:17:39,0.00106,1.0694,24.9,0,0
240,241,1,2,CC Chg,00:03:28,00:03:58,0.00098,1.0708,6e-05,6e-05,2024-07-30 20:18:09,0.00105,1.0723,25.1,0,0
270,271,1,2,CC Chg,00:03:58,00:04:28,0.00099,1.0745,7e-05,7e-05,2024-07-30 20:18:39,0.00107,1.0722,24.9,0,0
300,301,1,2,CC Chg,00:04:28,00:04:58,0.00099,1.077,7e-05,8e-05,2024-07-30 20:19:09,0.00107,1.0725,24.9,0,0
330,331,1,2,CC Chg,00:04:58,00:05:28,0.00099,1.076,8e-05,9e-05,2024-07-30 20:19:39,0.00107,1.0726,24.9,0,0
360,361,1,2,CC Chg,00:05:28,00:05:58,0.00098,1.0732,9e-05,0.0001,2024-07-30 20:20:09,0.00105,1.0697,25.1,0,0
390,391,1,2,CC Chg,00:05:58,00:06:28,0.00098,1.0717,0.0001,0.00011,2024-07-30 20:20:39,0.00105,1.0674,24.9,0,0
420,421,1,2,CC Chg,00:06:28,00:06:58,0.00098,1.0729,0.00011,0.00011,2024-07-30 20:21:09,0.00105,1.0731,24.9,0,0
450,451,1,2,CC Chg,00:06:58,00:07:28,0.00099,1.0689,0.00011,0.00012,2024-07-30 20:21:39,0.00106,1.0709,25.1,0,0
480,481,1,2,CC Chg,00:07:28,00:07:58,0.00099,1.0711,0.00012,0.00013,2024-07-30 20:22:09,0.00106,1.0688,25.1,0,0
510,511,1,2,CC Chg,00:07:58,00:08:28,0.00098,1.0751,0.00013,0.00014,2024-07-30 20:22:39,0.00105,1.068,24.9,0,0
540,541,1,2,CC Chg,00:08:28,00:08:58,0.00099,1.0766,0.00014,0.00015,2024-07-30 20:23:09,0.00107,1.068,25.1,0,0
570,571,1,2,CC Chg,00:08:58,00:09:28,0.00099,1.0745,0.00015,0.00016,2024-07-30 20:23:39,0.00107,1.0679,25.0,0,0
600,601,1,2,CC Chg,00:09:28,00:09:58,0.00099,1.076,0.00016,0.00017,2024-07-30 20:24:09,0.00107,1.0689,25.0,0,0
630,631,1,2,CC Chg,00:09:58,00:10:28,0.00099,1.0739,0.00016,0.00018,2024-07-30 20:24:39,0.00107,1.0691,25.0,0,0
660,661,1,3,Rest,00:00:27,00:10:56,0.0,0.0068,0.0,0.0,2024-07-30 20:25:08,0.0,0.0172,25.0,0,0
690,691,1,3,Rest,00:00:57,00:11:26,0.0,0.0074,0.0,0.0,2024-07-30 20:25:38,0.0,0.0222,25.0,0,0
720,721,1,3,Rest,00:01:27,00:11:56,0.0,0.0071,0.0,0.0,2024-07-30 20:26:08,0.0,0.0176,25.0,0,0
750,751,1,3,Rest,00:01:57,00:12:26,0.0,0.0062,0.0,0.0,2024-07-30 20:26:38,0.0,0.0258,24.8,0,0
780,781,1,3,Rest,00:02:27,00:12:56,0.0,0.0071,0.0,0.0,2024-07-30 20:27:08,0.0,0.0103,25.0,0,0
810,811,1,3,Rest,00:02:57,00:13:26,0.0,0.0046,0.0,0.0,2024-07-30 20:27:38,0.0,0.0147,25.0,0,0
840,841,1,3,Rest,00:03:27,00:13:56,0.0,0.0068,0.0,0.0,2024-07-30 20:28:08,0.0,0.0221,25.0,0,0
870,871,1,3,Rest,00:03:57,00:14:26,0.0,0.0058,0.0,0.0,2024-07-30 20:28:38,0.0,-0.0284,25.0,0,0
900,901,1,3,Rest,00:04:27,00:14:56,0.0,0.0043,0.0,0.0,2024-07-30 20:29:08,0.0,0.0144,25.0,0,0
930,931,1,3,Rest,00:04:57,00:15:26,0.0,0.0077,0.0,0.0,2024-07-30 20:29:38,0.0,0.0159,25.0,0,0
960,961,1,4,CC Chg,00:00:26,00:15:55,0.00198,2.1651,1e-05,3e-05,2024-07-30 20:30:07,0.0043,2.1613,25.0,0,0
990,991,1,4,CC Chg,00:00:56,00:16:25,0.00199,2.1704,3e-05,7e-05,2024-07-30 20:30:37,0.00432,2.1658,25.0,0,0
1020,1021,1,4,CC Chg,00:01:26,00:16:55,0.00198,2.1657,5e-05,0.0001,2024-07-30 20:31:07,0.0043,2.1682,25.0,0,0
1050,1051,1,4,CC Chg,00:01:56,00:17:25,0.00199,2.171,6e-05,0.00014,2024-07-30 20:31:37,0.00432,2.1635,24.8,0,0
1080,1081,1,4,CC Chg,00:02:26,00:17:55,0.00199,2.1713,8e-05,0.00017,2024-07-30 20:32:07,0.00432,2.1648,24.8,0,0
1110,1111,1,4,CC Chg,00:02:56,00:18:25,0.00198,2.1679,0.0001,0.00021,2024-07-30 20:32:37,0.0043,2.1628,24.8,0,0
1140,1141,1,4,CC Chg,00:03:26,00:18:55,0.00199,2.1707,0.00011,0.00025,2024-07-30 20:33:07,0.00432,2.165,24.8,0,0
1170,1171,1,4,CC Chg,00:03:56,00:19:25,0.00199,2.1732,0.00013,0.00028,2024-07-30 20:33:37,0.00432,2.1627,24.8,0,0
1200,1201,1,4,CC Chg,00:04:26,00:19:55,0.00198,2.1698,0.00015,0.00032,2024-07-30 20:34:07,0.0043,2.1638,25.0,0,0
1230,1231,1,4,CC Chg,00:04:56,00:20:25,0.00199,2.1661,0.00016,0.00035,2024-07-30 20:34:37,0.00431,2.1641,24.8,0,0
1260,1261,1,4,CC Chg,00:05:26,00:20:55,0.00199,2.1732,0.00018,0.00039,2024-07-30 20:35:07,0.00432,2.1659,24.8,0,0
1290,1291,1,4,CC Chg,00:05:56,00:21:25,0.00199,2.1707,0.0002,0.00043,2024-07-30 20:35:37,0.00432,2.1632,25.0,0,0
1320,1321,1,4,CC Chg,00:06:26,00:21:55,0.00198,2.1747,0.00021,0.00046,2024-07-30 20:36:07,0.00431,2.1612,25.0,0,0
1350,1351,1,4,CC Chg,00:06:56,00:22:25,0.00199,2.1651,0.00023,0.0005,2024-07-30 20:36:37,0.00431,2.1621,24.8,0,0
1380,1381,1,4,CC Chg,00:07:26,00:22:55,0.00198,2.1657,0.00025,0.00053,2024-07-30 20:37:07,0.0043,2.1659,24.8,0,0
1410,1411,1,4,CC Chg,00:07:56,00:23:25,0.00198,2.167,0.00026,0.00057,2024-07-30 20:37:37,0.0043,2.1661,25.0,0,0
1440,1441,1,4,CC Chg,00:08:26,00:23:55,0.00199,2.1657,0.00028,0.00061,2024-07-30 20:38:07,0.00431,2.1628,24.8,0,0
1470,1471,1,4,CC Chg,00:08:56,00:24:25,0.00198,2.1729,0.0003,0.00064,2024-07-30 20:38:37,0.00431,2.1625,25.0,0,0
1500,1501,1,4,CC Chg,00:09:26,00:24:55,0.00199,2.1719,0.00031,0.00068,2024-07-30 20:39:07,0.00432,2.1632,24.8,0,0
1530,1531,1,4,CC Chg,00:09:56,00:25:25,0.00198,2.1692,0.00033,0.00071,2024-07-30 20:39:37,0.0043,2.1619,24.8,0,0
1560,1561,1,5,Rest,00:00:25,00:25:54,0.0,0.0058,0.0,0.0,2024-07-30 20:40:06,0.0,0.0032,24.8,0,0
1590,1591,1,5,Rest,00:00:55,00:26:24,0.0,0.0049,0.0,0.0,2024-07-30 20:40:36,0.0,-0.0192,24.8,0,0
1620,1621,1,5,Rest,00:01:25,00:26:54,0.0,0.0046,0.0,0.0,2024-07-30 20:41:06,0.0,0.0172,25.0,0,0
1650,1651,1,5,Rest,00:01:55,00:27:24,0.0,0.0021,0.0,0.0,2024-07-30 20:41:36,0.0,-0.0081,25.0,0,0
1680,1681,1,5,Rest,00:02:25,00:27:54,0.0,0.0024,0.0,0.0,2024-07-30 20:42:06,0.0,0.0041,24.8,0,0
1710,1711,1,5,Rest,00:02:55,00:28:24,0.0,0.0055,0.0,0.0,2024-07-30 20:42:36,0.0,-0.0175,25.0,0,0
1740,1741,1,5,Rest,00:03:25,00:28:54,0.0,0.0046,0.0,0.0,2024-07-30 20:43:06,0.0,0.0195,25.0,0,0
1770,1771,1,5,Rest,00:03:55,00:29:24,0.0,0.0043,0.0,0.0,2024-07-30 20:43:36,0.0,0.0116,24.8,0,0
1800,1801,1,5,Rest,00:04:25,00:29:54,0.0,0.0049,0.0,0.0,2024-07-30 20:44:06,0.0,0.0153,24.8,0,0
1830,1831,1,5,Rest,00:04:55,00:30:24,0.0,0.0068,0.0,0.0,2024-07-30 20:44:36,0.0,-0.0121,24.8,0,0
1860,1861,1,6,CC Chg,00:00:24,00:30:53,0.00298,3.2505,2e-05,6e-05,2024-07-30 20:45:05,0.00969,3.2512,25.0,0,0
1890,1891,1,6,CC Chg,00:00:54,00:31:23,0.00298,3.2573,4e-05,0.00015,2024-07-30 20:45:35,0.00971,3.2567,24.8,0,0
1920,1921,1,6,CC Chg,00:01:24,00:31:53,0.00298,3.2604,7e-05,0.00023,2024-07-30 20:46:05,0.00972,3.2537,24.8,0,0
1950,1951,1,6,CC Chg,00:01:54,00:32:23,0.00298,3.2651,9e-05,0.00031,2024-07-30 20:46:35,0.00974,3.254,25.0,0,0
1980,1981,1,6,CC Chg,00:02:24,00:32:53,0.00298,3.266,0.00012,0.00039,2024-07-30 20:47:05,0.00974,3.26,25.0,0,0
2010,2011,1,6,CC Chg,00:02:54,00:33:23,0.00298,3.2586,0.00014,0.00047,2024-07-30 20:47:35,0.00972,3.2554,25.0,0,0
2040,2041,1,6,CC Chg,00:03:24,00:33:53,0.00298,3.2629,0.00017,0.00055,2024-07-30 20:48:05,0.00973,3.2563,25.0,0,0
2070,2071,1,6,CC Chg,00:03:54,00:34:23,0.00298,3.2607,0.00019,0.00063,2024-07-30 20:48:35,0.00972,3.254,25.0,0,0
2100,2101,1,6,CC Chg,00:04:24,00:34:53,0.00298,3.2592,0.00022,0.00071,2024-07-30 20:49:05,0.00972,3.2551,25.0,0,0
2130,2131,1,6,CC Chg,00:04:54,00:35:23,0.00298,3.2654,0.00024,0.00079,2024-07-30 20:49:35,0.00974,3.2547,24.8,0,0
2160,2161,1,6,CC Chg,00:05:24,00:35:53,0.00298,3.2626,0.00027,0.00087,2024-07-30 20:50:05,0.00973,3.2546,25.0,0,0
2190,2191,1,6,CC Chg,00:05:54,00:36:23,0.00298,3.2598,0.00029,0.00096,2024-07-30 20:50:35,0.00972,3.2551,24.8,0,0
2220,2221,1,6,CC Chg,00:06:24,00:36:53,0.00298,3.2666,0.00032,0.00104,2024-07-30 20:51:05,0.00974,3.2578,24.9,0,0
2250,2251,1,6,CC Chg,00:06:54,00:37:23,0.00298,3.2635,0.00034,0.00112,2024-07-30 20:51:35,0.00973,3.2567,24.9,0,0
2280,2281,1,6,CC Chg,00:07:24,00:37:53,0.00298,3.2598,0.00037,0.0012,2024-07-30 20:52:05,0.00972,3.2566,24.9,0,0
2310,2311,1,6,CC Chg,00:07:54,00:38:23,0.00298,3.2638,0.00039,0.00128,2024-07-30 20:52:35,0.00973,3.2541,24.7,0,0
2340,2341,1,6,CC Chg,00:08:24,00:38:53,0.00298,3.2598,0.00042,0.00136,2024-07-30 20:53:05,0.00972,3.256,24.9,0,0
2370,2371,1,6,CC Chg,00:08:54,00:39:23,0.00298,3.2589,0.00044,0.00144,2024-07-30 20:53:35,0.00972,3.2529,24.7,0,0
2400,2401,1,6,CC Chg,00:09:24,00:39:53,0.00298,3.262,0.00047,0.00152,2024-07-30 20:54:05,0.00973,3.2587,24.7,0,0
2430,2431,1,6,CC Chg,00:09:54,00:40:23,0.00298,3.2604,0.00049,0.0016,2024-07-30 20:54:35,0.00972,3.2612,24.7,0,0
2460,2461,1,7,Rest,00:00:23,00:40:52,0.0,0.0062,0.0,0.0,2024-07-30 20:55:04,0.0,-0.0078,24.7,0,0
2490,2491,1,7,Rest,00:00:53,00:41:22,0.0,0.0046,0.0,0.0,2024-07-30 20:55:34,0.0,-0.0153,24.7,0,0
2520,2521,1,7,Rest,00:01:23,00:41:52,0.0,0.0046,0.0,0.0,2024-07-30 20:56:04,0.0,-0.0238,24.7,0,0
2550,2551,1,7,Rest,00:01:53,00:42:22,0.0,0.0071,0.0,0.0,2024-07-30 20:56:34,0.0,0.0146,24.7,0,0
2580,2581,1,7,Rest,00:02:23,00:42:52,0.0,0.0046,0.0,0.0,2024-07-30 20:57:04,0.0,0.0247,24.9,0,0
2610,2611,1,7,Rest,00:02:53,00:43:22,0.0,0.0068,0.0,0.0,2024-07-30 20:57:34,0.0,0.0123,24.9,0,0
2640,2641,1,7,Rest,00:03:23,00:43:52,0.0,0.0058,0.0,0.0,2024-07-30 20:58:04,0.0,0.0249,24.9,0,0
2670,2671,1,7,Rest,00:03:53,00:44:22,0.0,0.0043,0.0,0.0,2024-07-30 20:58:34,0.0,0.0107,24.7,0,0
2700,2701,1,7,Rest,00:04:23,00:44:52,0.0,0.0071,0.0,0.0,2024-07-30 20:59:04,0.0,0.0099,24.7,0,0
2730,2731,1,7,Rest,00:04:53,00:45:22,0.0,0.0034,0.0,0.0,2024-07-30 20:59:34,0.0,-0.0079,24.9,0,0
2760,2761,1,8,CC Chg,00:00:22,00:45:51,0.00399,4.3625,2e-05,0.00011,2024-07-30 21:00:03,0.01742,4.3634,24.7,0,0
2790,2791,1,8,CC Chg,00:00:52,00:46:21,0.00399,4.3722,6e-05,0.00025,2024-07-30 21:00:33,0.01746,4.3705,24.9,0,0
2820,2821,1,8,CC Chg,00:01:22,00:46:51,0.00399,4.3746,9e-05,0.0004,2024-07-30 21:01:03,0.01747,4.373,24.7,0,0
2850,2851,1,8,CC Chg,00:01:52,00:47:21,0.00399,4.3762,0.00012,0.00054,2024-07-30 21:01:33,0.01747,4.3734,24.7,0,0
2880,2881,1,8,CC Chg,00:02:22,00:47:51,0.00399,4.379,0.00016,0.00069,2024-07-30 21:02:03,0.01749,4.3782,24.7,0,0
2910,2911,1,8,CC Chg,00:02:52,00:48:21,0.00399,4.3917,0.00019,0.00084,2024-07-30 21:02:33,0.01754,4.3783,24.9,0,0
2940,2941,1,8,CC Chg,00:03:22,00:48:51,0.00399,4.3812,0.00022,0.00098,2024-07-30 21:03:03,0.01749,4.3763,24.9,0,0
2970,2971,1,8,CC Chg,00:03:52,00:49:21,0.00399,4.3818,0.00026,0.00113,2024-07-30 21:03:33,0.0175,4.3823,24.9,0,0
3000,3001,1,8,CC Chg,00:04:22,00:49:51,0.00399,4.3886,0.00029,0.00127,2024-07-30 21:04:03,0.01752,4.3756,24.9,0,0
3030,3031,1,8,CC Chg,00:04:52,00:50:21,0.00399,4.3808,0.00032,0.00142,2024-07-30 21:04:33,0.01749,4.3785,24.9,0,0
3060,3061,1,8,CC Chg,00:05:22,00:50:51,0.00399,4.3808,0.00036,0.00156,2024-07-30 21:05:03,0.01749,4.3831,24.7,0,0
3090,3091,1,8,CC Chg,00:05:52,00:51:21,0.00399,4.3858,0.00039,0.00171,2024-07-30 21:05:33,0.01751,4.3782,24.9,0,0
3120,3121,1,8,CC Chg,00:06:22,00:51:51,0.00399,4.3815,0.00042,0.00186,2024-07-30 21:06:03,0.0175,4.3753,24.7,0,0
3150,3151,1,8,CC Chg,00:06:52,00:52:21,0.00399,4.3849,0.00046,0.002,2024-07-30 21:06:33,0.01751,4.3797,24.9,0,0
3180,3181,1,8,CC Chg,00:07:22,00:52:51,0.00399,4.387,0.00049,0.00215,2024-07-30 21:07:03,0.01752,4.3837,24.9,0,0
3210,3211,1,8,CC Chg,00:07:52,00:53:21,0.00399,4.3898,0.00052,0.00229,2024-07-30 21:07:33,0.01753,4.3806,24.7,0,0
3240,3241,1,8,CC Chg,00:08:22,00:53:51,0.00399,4.387,0.00056,0.00244,2024-07-30 21:08:03,0.01752,4.3825,24.7,0,0
3270,3271,1,8,CC Chg,00:08:52,00:54:21,0.00399,4.3917,0.00059,0.00259,2024-07-30 21:08:33,0.01754,4.3788,24.9,0,0
3300,3301,1,8,CC Chg,00:09:22,00:54:51,0.00399,4.3827,0.00062,0.00273,2024-07-30 21:09:03,0.0175,4.3788,24.7,0,0
3330,3331,1,8,CC Chg,00:09:52,00:55:21,0.00399,4.387,0.00066,0.00288,2024-07-30 21:09:33,0.01752,4.3774,24.9,0,0
3360,3361,1,9,Rest,00:00:21,00:55:50,0.0,0.0043,0.0,0.0,2024-07-30 21:10:02,0.0,0.027,24.9,0,0
3390,3391,1,9,Rest,00:00:51,00:56:20,0.0,0.0058,0.0,0.0,2024-07-30 21:10:32,0.0,0.0198,24.9,0,0
3420,3421,1,9,Rest,00:01:21,00:56:50,0.0,0.004,0.0,0.0,2024-07-30 21:11:02,0.0,-0.0143,24.9,0,0
3450,3451,1,9,Rest,00:01:51,00:57:20,0.0,0.0058,0.0,0.0,2024-07-30 21:11:32,0.0,0.0116,24.9,0,0
3480,3481,1,9,Rest,00:02:21,00:57:50,0.0,0.0062,0.0,0.0,2024-07-30 21:12:02,0.0,-0.0123,24.9,0,0
3510,3511,1,9,Rest,00:02:51,00:58:20,0.0,0.0086,0.0,0.0,2024-07-30 21:12:32,0.0,0.0033,24.8,0,0
3540,3541,1,9,Rest,00:03:21,00:58:50,0.0,0.0043,0.0,0.0,2024-07-30 21:13:02,0.0,-0.0115,24.8,0,0
3570,3571,1,9,Rest,00:03:51,00:59:20,0.0,0.0055,0.0,0.0,2024-07-30 21:13:32,0.0,-0.019,24.8,0,0
3600,3601,1,9,Rest,00:04:21,00:59:50,0.0,0.0034,0.0,0.0,2024-07-30 21:14:02,0.0,0.0092,24.8,0,0
3630,3631,1,9,Rest,00:04:51,01:00:20,0.0,0.0021,0.0,0.0,2024-07-30 21:14:32,0.0,0.0081,24.8,0,0
3660,3661,1,10,CC Chg,00:00:20,01:00:49,0.00448,4.9138,2e-05,0.00012,2024-07-30 21:15:01,0.02202,4.9091,24.8,0,0
3690,3691,1,10,CC Chg,00:00:50,01:01:19,0.00448,4.9187,6e-05,0.00031,2024-07-30 21:15:31,0.02205,4.9144,24.8,0,0
3720,3721,1,10,CC Chg,00:01:20,01:01:49,0.00448,4.9265,0.0001,0.00049,2024-07-30 21:16:01,0.02208,4.9197,24.8,0,0
3750,3751,1,10,CC Chg,00:01:50,01:02:19,0.00448,4.9302,0.00014,0.00067,2024-07-30 21:16:31,0.0221,4.9221,24.8,0,0
3780,3781,1,10,CC Chg,00:02:20,01:02:49,0.00448,4.929,0.00017,0.00086,2024-07-30 21:17:01,0.02209,4.9283,24.8,0,0
3810,3811,1,10,CC Chg,00:02:50,01:03:19,0.00448,4.9302,0.00021,0.00104,2024-07-30 21:17:31,0.0221,4.9281,24.8,0,0
3840,3841,1,10,CC Chg,00:03:20,01:03:49,0.00448,4.9376,0.00025,0.00123,2024-07-30 21:18:01,0.02213,4.9258,24.8,0,0
3870,3871,1,10,CC Chg,00:03:50,01:04:19,0.00448,4.9361,0.00029,0.00141,2024-07-30 21:18:31,0.02212,4.9234,24.8,0,0
3900,3901,1,10,CC Chg,00:04:20,01:04:49,0.00448,4.9358,0.00032,0.0016,2024-07-30 21:19:01,0.02212,4.934,25.0,0,0
3930,3931,1,10,CC Chg,00:04:50,01:05:19,0.00448,4.9333,0.00036,0.00178,2024-07-30 21:19:31,0.02211,4.9264,24.8,0,0
3960,3961,1,10,CC Chg,00:05:20,01:05:49,0.00448,4.9361,0.0004,0.00196,2024-07-30 21:20:01,0.02212,4.9321,25.0,0,0
3990,3991,1,10,CC Chg,00:05:50,01:06:19,0.00448,4.9342,0.00044,0.00215,2024-07-30 21:20:31,0.02212,4.9324,24.8,0,0
4020,4021,1,10,CC Chg,00:06:20,01:06:49,0.00448,4.9302,0.00047,0.00233,2024-07-30 21:21:01,0.0221,4.9306,24.8,0,0
4050,4051,1,10,CC Chg,00:06:50,01:07:19,0.00448,4.9311,0.00051,0.00252,2024-07-30 21:21:31,0.0221,4.9241,25.0,0,0
4080,4081,1,10,CC Chg,00:07:20,01:07:49,0.00448,4.9345,0.00055,0.0027,2024-07-30 21:22:01,0.02212,4.9263,25.0,0,0
4110,4111,1,10,CC Chg,00:07:50,01:08:19,0.00448,4.9286,0.00059,0.00288,2024-07-30 21:22:31,0.02209,4.9254,25.0,0,0
4140,4141,1,10,CC Chg,00:08:20,01:08:49,0.00448,4.9404,0.00062,0.00307,2024-07-30 21:23:01,0.02214,4.9267,25.0,0,0
4170,4171,1,10,CC Chg,00:08:50,01:09:19,0.00448,4.9299,0.00066,0.00325,2024-07-30 21:23:31,0.0221,4.9298,25.0,0,0
4200,4201,1,10,CC Chg,00:09:20,01:09:49,0.00448,4.9355,0.0007,0.00344,2024-07-30 21:24:01,0.02212,4.9292,25.0,0,0
4230,4231,1,10,CC Chg,00:09:50,01:10:19,0.00448,4.9336,0.00073,0.00362,2024-07-30 21:24:31,0.02211,4.9267,25.0,0,0
4260,4261,1,11,Rest,00:00:19,01:10:48,0.0,0.0046,0.0,0.0,2024-07-30 21:25:00,0.0,0.0135,25.0,0,0
4290,4291,1,11,Rest,00:00:49,01:11:18,0.0,0.0077,0.0,0.0,2024-07-30 21:25:30,0.0,0.0221,25.2,0,0
4320,4321,1,11,Rest,00:01:19,01:11:48,0.0,0.0024,0.0,0.0,2024-07-30 21:26:00,0.0,0.0232,25.0,0,0
4350,4351,1,11,Rest,00:01:49,01:12:18,0.0,0.0043,0.0,0.0,2024-07-30 21:26:30,0.0,0.0238,25.0,0,0
4380,4381,1,11,Rest,00:02:19,01:12:48,0.0,0.0046,0.0,0.0,2024-07-30 21:27:00,0.0,0.0201,25.0,0,0
4410,4411,1,11,Rest,00:02:49,01:13:18,0.0,0.004,0.0,0.0,2024-07-30 21:27:30,0.0,0.0207,25.2,0,0
4440,4441,1,11,Rest,00:03:19,01:13:48,0.0,0.0065,0.0,0.0,2024-07-30 21:28:00,0.0,0.0084,25.2,0,0
4470,4471,1,11,Rest,00:03:49,01:14:18,0.0,0.0024,0.0,0.0,2024-07-30 21:28:30,0.0,0.0166,25.0,0,0
4500,4501,1,11,Rest,00:04:19,01:14:48,0.0,0.0058,0.0,0.0,2024-07-30 21:29:00,0.0,0.0221,25.2,0,0
4530,4531,1,11,Rest,00:04:49,01:15:18,0.0,0.004,0.0,0.0,2024-07-30 21:29:30,0.0,0.0084,25.2,0,0
4560,4561,1,12,Rest,00:00:18,01:15:47,0.0,0.0055,0.0,0.0,2024-07-30 21:29:59,0.0,0.0078,25.2,0,0
4590,4591,1,12,Rest,00:00:48,01:16:17,0.0,0.0068,0.0,0.0,2024-07-30 21:30:29,0.0,0.0198,25.2,0,0
4620,4621,1,12,Rest,00:01:18,01:16:47,0.0,0.0043,0.0,0.0,2024-07-30 21:30:59,0.0,0.0139,25.2,0,0
4650,4651,1,12,Rest,00:01:48,01:17:17,0.0,0.0083,0.0,0.0,2024-07-30 21:31:29,0.0,0.0292,25.2,0,0
4680,4681,1,12,Rest,00:02:18,01:17:47,0.0,0.0046,0.0,0.0,2024-07-30 21:31:59,0.0,-0.0264,25.2,0,0
4710,4711,1,12,Rest,00:02:48,01:18:17,0.0,0.0043,0.0,0.0,2024-07-30 21:32:29,0.0,0.0242,25.2,0,0
4740,4741,1,12,Rest,00:03:18,01:18:47,0.0,0.0043,0.0,0.0,2024-07-30 21:32:59,0.0,0.0101,25.2,0,0
4770,4771,1,12,Rest,00:03:48,01:19:17,0.0,0.0083,0.0,0.0,2024-07-30 21:33:29,0.0,0.0127,25.4,0,0
4800,4801,1,12,Rest,00:04:18,01:19:47,0.0,0.0065,0.0,0.0,2024-07-30 21:33:59,0.0,0.0139,25.4,0,0
4830,4831,1,12,Rest,00:04:48,01:20:17,0.0,0.0024,0.0,0.0,2024-07-30 21:34:29,0.0,0.0296,25.2,0,0
4860,4861,1,12,Rest,00:05:18,01:20:47,0.0,0.0043,0.0,0.0,2024-07-30 21:34:59,0.0,-0.0039,25.4,0,0
4890,4891,1,12,Rest,00:05:48,01:21:17,0.0,0.0043,0.0,0.0,2024-07-30 21:35:29,0.0,0.0158,25.2,0,0
4920,4921,1,12,Rest,00:06:18,01:21:47,0.0,0.0086,0.0,0.0,2024-07-30 21:35:59,0.0,0.0043,25.4,0,0
4950,4951,1,12,Rest,00:06:48,01:22:17,0.0,0.0049,0.0,0.0,2024-07-30 21:36:29,0.0,-0.003,25.4,0,0
4980,4981,1,12,Rest,00:07:18,01:22:47,0.0,0.0043,0.0,0.0,2024-07-30 21:36:59,0.0,0.0129,25.4,0,0
5010,5011,1,12,Rest,00:07:48,01:23:17,0.0,0.0024,0.0,0.0,2024-07-30 21:37:29,0.0,0.0273,25.4,0,0
5040,5041,1,12,Rest,00:08:18,01:23:47,0.0,0.0034,0.0,0.0,2024-07-30 21:37:59,0.0,0.027,25.4,0,0
5070,5071,1,12,Rest,00:08:48,01:24:17,0.0,0.0062,0.0,0.0,2024-07-30 21:38:29,0.0,-0.0198,25.4,0,0
5100,5101,1,12,Rest,00:09:18,01:24:47,0.0,0.0043,0.0,0.0,2024-07-30 21:38:59,0.0,-0.0166,25.4,0,0
5130,5131,1,12,Rest,00:09:48,01:25:17,0.0,0.0021,0.0,0.0,2024-07-30 21:39:29,0.0,0.0159,25.4,0,0
5160,5161,1,12,Rest,00:10:18,01:25:47,0.0,0.0074,0.0,0.0,2024-07-30 21:39:59,0.0,-0.017,25.6,0,0
5190,5191,1,12,Rest,00:10:48,01:26:17,0.0,0.0043,0.0,0.0,2024-07-30 21:40:29,0.0,0.0136,25.4,0,0
5220,5221,1,12,Rest,00:11:18,01:26:47,0.0,0.0055,0.0,0.0,2024-07-30 21:40:59,0.0,0.005,25.4,0,0
5250,5251,1,12,Rest,00:11:48,01:27:17,0.0,0.0058,0.0,0.0,2024-07-30 21:41:29,0.0,0.019,25.6,0,0
5280,5281,1,12,Rest,00:12:18,01:27:47,0.0,0.0024,0.0,0.0,2024-07-30 21:41:59,0.0,-0.0129,25.4,0,0
5310,5311,1,12,Rest,00:12:48,01:28:17,0.0,0.0043,0.0,0.0,2024-07-30 21:42:29,0.0,0.0264,25.4,0,0
5340,5341,1,12,Rest,00:13:18,01:28:47,0.0,0.0021,0.0,0.0,2024-07-30 21:42:59,0.0,-0.0275,25.6,0,0
5370,5371,1,12,Rest,00:13:48,01:29:17,0.0,0.0065,0.0,0.0,2024-07-30 21:43:29,0.0,0.0249,25.6,0,0
5400,5401,1,12,Rest,00:14:18,01:29:47,0.0,0.0034,0.0,0.0,2024-07-30 21:43:59,0.0,0.0179,25.6,0,0
5430,5431,1,12,Rest,00:14:48,01:30:17,0.0,0.0058,0.0,0.0,2024-07-30 21:44:29,0.0,-0.0143,25.6,0,0
5460,5461,1,12,Rest,00:15:18,01:30:47,0.0,0.0055,0.0,0.0,2024-07-30 21:44:59,0.0,0.0032,25.6,0,0
5490,5491,1,12,Rest,00:15:48,01:31:17,0.0,0.008,0.0,0.0,2024-07-30 21:45:29,0.0,-0.0078,25.6,0,0
5520,5521,1,12,Rest,00:16:18,01:31:47,0.0,0.0074,0.0,0.0,2024-07-30 21:45:59,0.0,-0.0113,25.6,0,0
5550,5551,1,12,Rest,00:16:48,01:32:17,0.0,0.0027,0.0,0.0,2024-07-30 21:46:29,0.0,0.0169,25.6,0,0
5580,5581,1,12,Rest,00:17:18,01:32:47,0.0,0.0086,0.0,0.0,2024-07-30 21:46:59,0.0,0.0229,25.6,0,0
5610,5611,1,12,Rest,00:17:48,01:33:17,0.0,0.0062,0.0,0.0,2024-07-30 21:47:29,0.0,0.0124,25.6,0,0
5640,5641,1,12,Rest,00:18:18,01:33:47,0.0,0.004,0.0,0.0,2024-07-30 21:47:59,0.0,-0.0095,25.6,0,0
5670,5671,1,12,Rest,00:18:48,01:34:17,0.0,0.0046,0.0,0.0,2024-07-30 21:48:29,0.0,0.0178,25.8,0,0
5700,5701,1,12,Rest,00:19:18,01:34:47,0.0,0.0083,0.0,0.0,2024-07-30 21:48:59,0.0,0.0032,25.6,0,0
5730,5731,1,12,Rest,00:19:48,01:35:17,0.0,0.004,0.0,0.0,2024-07-30 21:49:29,0.0,0.0055,25.8,0,0
5760,5761,1,12,Rest,00:20:18,01:35:47,0.0,0.0068,0.0,0.0,2024-07-30 21:49:59,0.0,-0.0129,25.6,0,0
5790,5791,1,12,Rest,00:20:48,01:36:17,0.0,0.0071,0.0,0.0,2024-07-30 21:50:29,0.0,0.0244,25.8,0,0
5820,5821,1,12,Rest,00:21:18,01:36:47,0.0,0.0065,0.0,0.0,2024-07-30 21:50:59,0.0,-0.0079,25.6,0,0
5850,5851,1,12,Rest,00:21:48,01:37:17,0.0,0.0024,0.0,0.0,2024-07-30 21:51:29,0.0,-0.0013,25.8,0,0
5880,5881,1,12,Rest,00:22:18,01:37:47,0.0,0.0089,0.0,0.0,2024-07-30 21:51:59,0.0,0.027,25.8,0,0
5910,5911,1,12,Rest,00:22:48,01:38:17,0.0,0.0077,0.0,0.0,2024-07-30 21:52:29,0.0,-0.0226,25.8,0,0
5940,5941,1,12,Rest,00:23:18,01:38:47,0.0,0.0043,0.0,0.0,2024-07-30 21:52:59,0.0,0.0063,25.8,0,0
5970,5971,1,12,Rest,00:23:48,01:39:17,0.0,0.0074,0.0,0.0,2024-07-30 21:53:29,0.0,0.0103,25.6,0,0
6000,6001,1,12,Rest,00:24:18,01:39:47,0.0,0.0058,0.0,0.0,2024-07-30 21:53:59,0.0,-0.017,25.8,0,0
6030,6031,1,12,Rest,00:24:48,01:40:17,0.0,0.004,0.0,0.0,2024-07-30 21:54:29,0.0,-0.0116,25.8,0,0
6060,6061,1,12,Rest,00:25:18,01:40:47,0.0,0.0018,0.0,0.0,2024-07-30 21:54:59,0.0,-0.0233,25.6,0,0
6090,6091,1,12,Rest,00:25:48,01:41:17,0.0,0.0046,0.0,0.0,2024-07-30 21:55:29,0.0,0.0222,25.8,0,0
6120,6121,1,12,Rest,00:26:18,01:41:47,0.0,0.0021,0.0,0.0,2024-07-30 21:55:59,0.0,0.0183,25.8,0,0
6150,6151,1,12,Rest,00:26:48,01:42:17,0.0,0.0065,0.0,0.0,2024-07-30 21:56:29,0.0,-0.0203,25.6,0,0
6180,6181,1,12,Rest,00:27:18,01:42:47,0.0,0.0065,0.0,0.0,2024-07-30 21:56:59,0.0,0.0242,25.8,0,0
6210,6211,1,12,Rest,00:27:48,01:43:17,0.0,0.0074,0.0,0.0,2024-07-30 21:57:29,0.0,0.0178,25.8,0,0
6240,6241,1,12,Rest,00:28:18,01:43:47,0.0,0.0058,0.0,0.0,2024-07-30 21:57:59,0.0,-0.0153,25.8,0,0
6270,6271,1,12,Rest,00:28:48,01:44:17,0.0,0.0031,0.0,0.0,2024-07-30 21:58:29,0.0,0.0155,25.8,0,0
6300,6301,1,12,Rest,00:29:18,01:44:47,0.0,0.0031,0.0,0.0,2024-07-30 21:58:59,0.0,-0.0104,25.8,0,0
6330,6331,1,12,Rest,00:29:48,01:45:17,0.0,0.0058,0.0,0.0,2024-07-30 21:59:29,0.0,0.0161,25.8,0,0
6360,6361,1,12,Rest,00:30:18,01:45:47,0.0,0.0055,0.0,0.0,2024-07-30 21:59:59,0.0,0.0163,25.8,0,0
6390,6391,1,12,Rest,00:30:48,01:46:17,0.0,0.0068,0.0,0.0,2024-07-30 22:00:29,0.0,0.0221,25.8,0,0
6420,6421,1,12,Rest,00:31:18,01:46:47,0.0,0.0062,0.0,0.0,2024-07-30 22:00:59,0.0,0.0112,25.8,0,0
6450,6451,1,12,Rest,00:31:48,01:47:17,0.0,0.0058,0.0,0.0,2024-07-30 22:01:29,0.0,-0.0183,25.8,0,0
6480,6481,1,12,Rest,00:32:18,01:47:47,0.0,0.0062,0.0,0.0,2024-07-30 22:01:59,0.0,0.0201,25.8,0,0
6510,6511,1,12,Rest,00:32:48,01:48:17,0.0,0.0037,0.0,0.0,2024-07-30 22:02:29,0.0,0.0232,25.8,0,0
6540,6541,1,12,Rest,00:33:18,01:48:47,0.0,0.0031,0.0,0.0,2024-07-30 22:02:59,0.0,-0.0209,25.8,0,0
6570,6571,1,12,Rest,00:33:48,01:49:17,0.0,0.0058,0.0,0.0,2024-07-30 22:03:29,0.0,-0.0164,25.8,0,0
6600,6601,1,12,Rest,00:34:18,01:49:47,0.0,0.0065,0.0,0.0,2024-07-30 22:03:59,0.0,0.0119,25.8,0,0
6630,6631,1,12,Rest,00:34:48,01:50:17,0.0,0.0046,0.0,0.0,2024-07-30 22:04:29,0.0,0.0275,25.8,0,0
6660,6661,1,12,Rest,00:35:18,01:50:47,0.0,0.0065,0.0,0.0,2024-07-30 22:04:59,0.0,0.0069,25.8,0,0
6690,6691,1,12,Rest,00:35:48,01:51:17,0.0,0.0083,0.0,0.0,2024-07-30 22:05:29,0.0,0.0187,25.6,0,0
6720,6721,1,12,Rest,00:36:18,01:51:47,0.0,0.0065,0.0,0.0,2024-07-30 22:05:59,0.0,-0.0195,25.8,0,0
6750,6751,1,12,Rest,00:36:48,01:52:17,0.0,0.0043,0.0,0.0,2024-07-30 22:06:29,0.0,0.0046,25.8,0,0
6780,6781,1,12,Rest,00:37:18,01:52:47,0.0,0.0018,0.0,0.0,2024-07-30 22:06:59,0.0,-0.0152,25.8,0,0
6810,6811,1,12,Rest,00:37:48,01:53:17,0.0,0.0049,0.0,0.0,2024-07-30 22:07:29,0.0,0.0249,25.8,0,0
6840,6841,1,12,Rest,00:38:18,01:53:47,0.0,0.004,0.0,0.0,2024-07-30 22:07:59,0.0,-0.0167,25.8,0,0
6870,6871,1,12,Rest,00:38:48,01:54:17,0.0,0.0065,0.0,0.0,2024-07-30 22:08:29,0.0,0.0189,25.8,0,0
6900,6901,1,12,Rest,00:39:18,01:54:47,0.0,0.004,0.0,0.0,2024-07-30 22:08:59,0.0,0.0187,25.9,0,0
6930,6931,1,12,Rest,00:39:48,01:55:17,0.0,0.0089,0.0,0.0,2024-07-30 22:09:29,0.0,-0.0159,25.8,0,0
6960,6961,1,12,Rest,00:40:18,01:55:47,0.0,0.0062,0.0,0.0,2024-07-30 22:09:59,0.0,0.0018,25.8,0,0
6990,6991,1,12,Rest,00:40:48,01:56:17,0.0,0.004,0.0,0.0,2024-07-30 22:10:29,0.0,0.0176,25.8,0,0
7020,7021,1,12,Rest,00:41:18,01:56:47,0.0,0.0049,0.0,0.0,2024-07-30 22:10:59,0.0,-0.0264,25.8,0,0
7050,7051,1,12,Rest,00:41:48,01:57:17,0.0,0.004,0.0,0.0,2024-07-30 22:11:29,0.0,-0.0175,25.8,0,0
7080,7081,1,12,Rest,00:42:18,01:57:47,0.0,0.0049,0.0,0.0,2024-07-30 22:11:59,0.0,0.0236,25.8,0,0
7110,7111,1,12,Rest,00:42:48,01:58:17,0.0,0.0068,0.0,0.0,2024-07-30 22:12:29,0.0,0.0107,25.8,0,0
7140,7141,1,12,Rest,00:43:18,01:58:47,0.0,0.0062,0.0,0.0,2024-07-30 22:12:59,0.0,0.0136,25.8,0,0
7170,7171,1,12,Rest,00:43:48,01:59:17,0.0,0.0062,0.0,0.0,2024-07-30 22:13:29,0.0,-0.0253,25.8,0,0
7200,7201,1,12,Rest,00:44:18,01:59:47,0.0,0.0074,0.0,0.0,2024-07-30 22:13:59,0.0,0.0226,25.8,0,0
7230,7231,1,12,Rest,00:44:48,02:00:17,0.0,0.0043,0.0,0.0,2024-07-30 22:14:29,0.0,0.0083,25.8,0,0
7260,7261,1,12,Rest,00:45:18,02:00:47,0.0,0.0024,0.0,0.0,2024-07-30 22:14:59,0.0,0.0075,25.8,0,0
7290,7291,1,12,Rest,00:45:48,02:01:17,0.0,0.0031,0.0,0.0,2024-07-30 22:15:29,0.0,0.0181,25.8,0,0
7320,7321,1,12,Rest,00:46:18,02:01:47,0.0,0.0034,0.0,0.0,2024-07-30 22:15:59,0.0,0.0187,25.8,0,0
7350,7351,1,12,Rest,00:46:48,02:02:17,0.0,0.0062,0.0,0.0,2024-07-30 22:16:29,0.0,0.0019,25.8,0,0
7380,7381,1,12,Rest,00:47:18,02:02:47,0.0,0.0062,0.0,0.0,2024-07-30 22:16:59,0.0,0.0252,25.8,0,0
7410,7411,1,12,Rest,00:47:48,02:03:17,0.0,0.0027,0.0,0.0,2024-07-30 22:17:29,0.0,0.0103,25.8,0,0
7440,7441,1,12,Rest,00:48:18,02:03:47,0.0,0.0083,0.0,0.0,2024-07-30 22:17:59,0.0,-0.0116,25.8,0,0
7470,7471,1,12,Rest,00:48:48,02:04:17,0.0,0.004,0.0,0.0,2024-07-30 22:18:29,0.0,0.0127,25.8,0,0
7500,7501,1,12,Rest,00:49:18,02:04:47,0.0,0.0058,0.0,0.0,2024-07-30 22:18:59,0.0,0.0269,25.8,0,0
7530,7531,1,12,Rest,00:49:48,02:05:17,0.0,0.0086,0.0,0.0,2024-07-30 22:19:29,0.0,0.0184,25.8,0,0
7560,7561,1,12,Rest,00:50:18,02:05:47,0.0,0.0046,0.0,0.0,2024-07-30 22:19:59,0.0,-0.0033,25.8,0,0
7590,7591,1,12,Rest,00:50:48,02:06:17,0.0,0.008,0.0,0.0,2024-07-30 22:20:29,0.0,-0.0181,25.8,0,0
7620,7621,1,12,Rest,00:51:18,02:06:47,0.0,0.0049,0.0,0.0,2024-07-30 22:20:59,0.0,0.0156,25.8,0,0
7650,7651,1,12,Rest,00:51:48,02:07:17,0.0,0.0021,0.0,0.0,2024-07-30 22:21:29,0.0,-0.0181,25.8,0,0
7680,7681,1,12,Rest,00:52:18,02:07:47,0.0,0.0043,0.0,0.0,2024-07-30 22:21:59,0.0,-0.0101,25.8,0,0
7710,7711,1,12,Rest,00:52:48,02:08:17,0.0,0.0065,0.0,0.0,2024-07-30 22:22:29,0.0,0.0113,25.8,0,0
7740,7741,1,12,Rest,00:53:18,02:08:47,0.0,0.0043,0.0,0.0,2024-07-30 22:22:59,0.0,0.0113,25.9,0,0
7770,7771,1,12,Rest,00:53:48,02:09:17,0.0,0.0055,0.0,0.0,2024-07-30 22:23:29,0.0,0.0167,25.8,0,0
7800,7801,1,12,Rest,00:54:18,02:09:47,0.0,0.0018,0.0,0.0,2024-07-30 22:23:59,0.0,0.0029,25.8,0,0
7830,7831,1,12,Rest,00:54:48,02:10:17,0.0,0.0049,0.0,0.0,2024-07-30 22:24:29,0.0,-0.0032,25.8,0,0
7860,7861,1,12,Rest,00:55:18,02:10:47,0.0,0.0055,0.0,0.0,2024-07-30 22:24:59,0.0,0.0175,25.8,0,0
7890,7891,1,12,Rest,00:55:48,02:11:17,0.0,0.0021,0.0,0.0,2024-07-30 22:25:29,0.0,-0.0183,25.9,0,0
7920,7921,1,12,Rest,00:56:18,02:11:47,0.0,0.0065,0.0,0.0,2024-07-30 22:25:59,0.0,0.0104,25.9,0,0
7950,7951,1,12,Rest,00:56:48,02:12:17,0.0,0.0062,0.0,0.0,2024-07-30 22:26:29,0.0,0.0193,25.8,0,0
7980,7981,1,12,Rest,00:57:18,02:12:47,0.0,0.0055,0.0,0.0,2024-07-30 22:26:59,0.0,0.0029,25.9,0,0
8010,8011,1,12,Rest,00:57:48,02:13:17,0.0,0.0018,0.0,0.0,2024-07-30 22:27:29,0.0,0.0181,25.8,0,0
8040,8041,1,12,Rest,00:58:18,02:13:47,0.0,0.0062,0.0,0.0,2024-07-30 22:27:59,0.0,-0.0239,25.8,0,0
8070,8071,1,12,Rest,00:58:48,02:14:17,0.0,0.0065,0.0,0.0,2024-07-30 22:28:29,0.0,-0.0107,25.8,0,0
8100,8101,1,12,Rest,00:59:18,02:14:47,0.0,0.0074,0.0,0.0,2024-07-30 22:28:59,0.0,0.0141,25.9,0,0
8130,8131,1,12,Rest,00:59:48,02:15:17,0.0,0.0058,0.0,0.0,2024-07-30 22:29:29,0.0,0.0029,25.8,0,0
8160,8161,1,12,Rest,01:00:18,02:15:47,0.0,0.0058,0.0,0.0,2024-07-30 22:29:59,0.0,0.0267,25.8,0,0
8190,8191,1,12,Rest,01:00:48,02:16:17,0.0,0.0055,0.0,0.0,2024-07-30 22:30:29,0.0,0.0259,25.8,0,0
8220,8221,1,12,Rest,01:01:18,02:16:47,0.0,0.0031,0.0,0.0,2024-07-30 22:30:59,0.0,-0.0153,25.9,0,0
8250,8251,1,12,Rest,01:01:48,02:17:17,0.0,0.0065,0.0,0.0,2024-07-30 22:31:29,0.0,0.0218,25.8,0,0
8280,8281,1,12,Rest,01:02:18,02:17:47,0.0,0.004,0.0,0.0,2024-07-30 22:31:59,0.0,-0.0126,25.9,0,0
8310,8311,1,12,Rest,01:02:48,02:18:17,0.0,0.0043,0.0,0.0,2024-07-30 22:32:29,0.0,0.0092,25.8,0,0
8340,8341,1,12,Rest,01:03:18,02:18:47,0.0,0.0055,0.0,0.0,2024-07-30 22:32:59,0.0,0.0187,25.9,0,0
8370,8371,1,12,Rest,01:03:48,02:19:17,0.0,0.0077,0.0,0.0,2024-07-30 22:33:29,0.0,0.0138,25.8,0,0
8400,8401,1,12,Rest,01:04:18,02:19:47,0.0,0.0043,0.0,0.0,2024-07-30 22:33:59,0.0,-0.0126,25.8,0,0
8430,8431,1,12,Rest,01:04:48,02:20:17,0.0,0.0027,0.0,0.0,2024-07-30 22:34:29,0.0,-0.0269,25.8,0,0
8460,8461,1,12,Rest,01:05:18,02:20:47,0.0,0.0046,0.0,0.0,2024-07-30 22:34:59,0.0,0.0076,25.8,0,0
8490,8491,1,12,Rest,01:05:48,02:21:17,0.0,0.0043,0.0,0.0,2024-07-30 22:35:29,0.0,0.025,25.8,0,0
8520,8521,1,12,Rest,01:06:18,02:21:47,0.0,0.0046,0.0,0.0,2024-07-30 22:35:59,0.0,0.0084,25.9,0,0
8550,8551,1,12,Rest,01:06:48,02:22:17,0.0,0.0021,0.0,0.0,2024-07-30 22:36:29,0.0,0.0203,25.8,0,0
8580,8581,1,12,Rest,01:07:18,02:22:47,0.0,0.0046,0.0,0.0,2024-07-30 22:36:59,0.0,0.0229,25.8,0,0
8610,8611,1,12,Rest,01:07:48,02:23:17,0.0,0.0049,0.0,0.0,2024-07-30 22:37:29,0.0,0.0112,25.8,0,0
8640,8641,1,12,Rest,01:08:18,02:23:47,0.0,0.004,0.0,0.0,2024-07-30 22:37:59,0.0,0.0067,25.8,0,0
8670,8671,1,12,Rest,01:08:48,02:24:17,0.0,0.0046,0.0,0.0,2024-07-30 22:38:29,0.0,0.0226,25.9,0,0
8700,8701,1,12,Rest,01:09:18,02:24:47,0.0,0.0065,0.0,0.0,2024-07-30 22:38:59,0.0,-0.0209,25.9,0,0
8730,8731,1,12,Rest,01:09:48,02:25:17,0.0,0.0077,0.0,0.0,2024-07-30 22:39:29,0.0,0.0184,25.8,0,0
8760,8761,1,12,Rest,01:10:18,02:25:47,0.0,0.0037,0.0,0.0,2024-07-30 22:39:59,0.0,-0.0232,25.8,0,0
8790,8791,1,12,Rest,01:10:48,02:26:17,0.0,0.004,0.0,0.0,2024-07-30 22:40:29,0.0,0.0081,25.9,0,0
8820,8821,1,12,Rest,01:11:18,02:26:47,0.0,0.0071,0.0,0.0,2024-07-30 22:40:59,0.0,0.0195,25.8,0,0
8850,8851,1,12,Rest,01:11:48,02:27:17,0.0,0.0043,0.0,0.0,2024-07-30 22:41:29,0.0,-0.0192,25.8,0,0
8880,8881,1,12,Rest,01:12:18,02:27:47,0.0,0.0046,0.0,0.0,2024-07-30 22:41:59,0.0,0.0092,25.9,0,0
8910,8911,1,12,Rest,01:12:48,02:28:17,0.0,0.0043,0.0,0.0,2024-07-30 22:42:29,0.0,0.0138,25.9,0,0
8940,8941,1,12,Rest,01:13:18,02:28:47,0.0,0.0043,0.0,0.0,2024-07-30 22:42:59,0.0,-0.0179,25.9,0,0
8970,8971,1,12,Rest,01:13:48,02:29:17,0.0,0.008,0.0,0.0,2024-07-30 22:43:29,0.0,-0.0258,25.9,0,0
9000,9001,1,12,Rest,01:14:18,02:29:47,0.0,0.0043,0.0,0.0,2024-07-30 22:43:59,0.0,-0.0112,25.9,0,0
9030,9031,1,12,Rest,01:14:48,02:30:17,0.0,0.0071,0.0,0.0,2024-07-30 22:44:29,0.0,0.005,25.9,0,0
9060,9061,1,12,Rest,01:15:18,02:30:47,0.0,0.0071,0.0,0.0,2024-07-30 22:44:59,0.0,-0.0149,25.9,0,0
9090,9091,1,12,Rest,01:15:48,02:31:17,0.0,0.0065,0.0,0.0,2024-07-30 22:45:29,0.0,-0.0101,25.9,0,0
9120,9121,1,12,Rest,01:16:18,02:31:47,0.0,0.0034,0.0,0.0,2024-07-30 22:45:59,0.0,-0.0206,26.1,0,0
9150,9151,1,12,Rest,01:16:48,02:32:17,0.0,0.0046,0.0,0.0,2024-07-30 22:46:29,0.0,0.0266,26.1,0,0
9180,9181,1,12,Rest,01:17:18,02:32:47,0.0,0.0043,0.0,0.0,2024-07-30 22:46:59,0.0,0.0278,25.9,0,0
9210,9211,1,12,Rest,01:17:48,02:33:17,0.0,0.004,0.0,0.0,2024-07-30 22:47:29,0.0,0.0227,25.9,0,0
9240,9241,1,12,Rest,01:18:18,02:33:47,0.0,0.0074,0.0,0.0,2024-07-30 22:47:59,0.0,-0.0166,25.9,0,0
9270,9271,1,12,Rest,01:18:48,02:34:17,0.0,0.0074,0.0,0.0,2024-07-30 22:48:29,0.0,-0.0016,25.8,0,0
9300,9301,1,12,Rest,01:19:18,02:34:47,0.0,0.0027,0.0,0.0,2024-07-30 22:48:59,0.0,0.0081,25.8,0,0
9330,9331,1,12,Rest,01:19:48,02:35:17,0.0,0.0037,0.0,0.0,2024-07-30 22:49:29,0.0,0.0156,25.8,0,0
9360,9361,1,12,Rest,01:20:18,02:35:47,0.0,0.0055,0.0,0.0,2024-07-30 22:49:59,0.0,0.0018,25.9,0,0
9390,9391,1,12,Rest,01:20:48,02:36:17,0.0,0.0049,0.0,0.0,2024-07-30 22:50:29,0.0,0.011,25.9,0,0
9420,9421,1,12,Rest,01:21:18,02:36:47,0.0,0.0086,0.0,0.0,2024-07-30 22:50:59,0.0,0.0201,25.9,0,0
9450,9451,1,12,Rest,01:21:48,02:37:17,0.0,0.0024,0.0,0.0,2024-07-30 22:51:29,0.0,0.0147,25.9,0,0
9480,9481,1,12,Rest,01:22:18,02:37:47,0.0,0.0077,0.0,0.0,2024-07-30 22:51:59,0.0,0.0169,25.8,0,0
9510,9511,1,12,Rest,01:22:48,02:38:17,0.0,0.0068,0.0,0.0,2024-07-30 22:52:29,0.0,0.0241,25.8,0,0
9540,9541,1,12,Rest,01:23:18,02:38:47,0.0,0.0068,0.0,0.0,2024-07-30 22:52:59,0.0,-0.0116,25.8,0,0
9570,9571,1,12,Rest,01:23:48,02:39:17,0.0,0.0068,0.0,0.0,2024-07-30 22:53:29,0.0,-0.0038,25.8,0,0
9600,9601,1,12,Rest,01:24:18,02:39:47,0.0,0.0065,0.0,0.0,2024-07-30 22:53:59,0.0,0.021,25.8,0,0
9630,9631,1,12,Rest,01:24:48,02:40:17,0.0,0.0046,0.0,0.0,2024-07-30 22:54:29,0.0,0.0178,25.8,0,0
9660,9661,1,12,Rest,01:25:18,02:40:47,0.0,0.0065,0.0,0.0,2024-07-30 22:54:59,0.0,0.0246,25.8,0,0
9690,9691,1,12,Rest,01:25:48,02:41:17,0.0,0.004,0.0,0.0,2024-07-30 22:55:29,0.0,-0.0098,25.8,0,0
9720,9721,1,12,Rest,01:26:18,02:41:47,0.0,0.0018,0.0,0.0,2024-07-30 22:55:59,0.0,0.0098,25.8,0,0
9750,9751,1,12,Rest,01:26:48,02:42:17,0.0,0.0065,0.0,0.0,2024-07-30 22:56:29,0.0,0.0261,25.8,0,0
9780,9781,1,12,Rest,01:27:18,02:42:47,0.0,0.0055,0.0,0.0,2024-07-30 22:56:59,0.0,0.0144,25.8,0,0
9810,9811,1,12,Rest,01:27:48,02:43:17,0.0,0.0046,0.0,0.0,2024-07-30 22:57:29,0.0,0.0242,25.8,0,0
9840,9841,1,12,Rest,01:28:18,02:43:47,0.0,0.0062,0.0,0.0,2024-07-30 22:57:59,0.0,-0.0035,25.8,0,0
9870,9871,1,12,Rest,01:28:48,02:44:17,0.0,0.0058,0.0,0.0,2024-07-30 22:58:29,0.0,-0.0222,25.8,0,0
9900,9901,1,12,Rest,01:29:18,02:44:47,0.0,0.0027,0.0,0.0,2024-07-30 22:58:59,0.0,0.021,25.8,0,0
9930,9931,1,12,Rest,01:29:48,02:45:17,0.0,0.0018,0.0,0.0,2024-07-30 22:59:29,0.0,0.0261,25.8,0,0
9960,9961,1,12,Rest,01:30:18,02:45:47,0.0,0.0068,0.0,0.0,2024-07-30 22:59:59,0.0,0.0056,25.8,0,0
9990,9991,1,12,Rest,01:30:48,02:46:17,0.0,0.0027,0.0,0.0,2024-07-30 23:00:29,0.0,0.0121,25.7,0,0
10020,10021,1,12,Rest,01:31:18,02:46:47,0.0,0.0024,0.0,0.0,2024-07-30 23:00:59,0.0,0.0138,25.7,0,0
10050,10051,1,12,Rest,01:31:48,02:47:17,0.0,0.0031,0.0,0.0,2024-07-30 23:01:29,0.0,0.017,25.8,0,0
10080,10081,1,12,Rest,01:32:18,02:47:47,0.0,0.0031,0.0,0.0,2024-07-30 23:01:59,0.0,-0.0038,25.7,0,0
10110,10111,1,12,Rest,01:32:48,02:48:17,0.0,0.0055,0.0,0.0,2024-07-30 23:02:29,0.0,0.027,25.7,0,0
10140,10141,1,12,Rest,01:33:18,02:48:47,0.0,0.0083,0.0,0.0,2024-07-30 23:02:59,0.0,0.0193,25.7,0,0
10170,10171,1,12,Rest,01:33:48,02:49:17,0.0,0.0046,0.0,0.0,2024-07-30 23:03:29,0.0,-0.0156,25.8,0,0
10200,10201,1,12,Rest,01:34:18,02:49:47,0.0,0.0055,0.0,0.0,2024-07-30 23:03:59,0.0,0.0166,25.8,0,0
10230,10231,1,12,Rest,01:34:48,02:50:17,0.0,0.0062,0.0,0.0,2024-07-30 23:04:29,0.0,0.0146,25.8,0,0
10260,10261,1,12,Rest,01:35:18,02:50:47,0.0,0.0074,0.0,0.0,2024-07-30 23:04:59,0.0,0.0021,25.8,0,0
10290,10291,1,12,Rest,01:35:48,02:51:17,0.0,0.0077,0.0,0.0,2024-07-30 23:05:29,0.0,-0.0076,25.8,0,0
10320,10321,1,12,Rest,01:36:18,02:51:47,0.0,0.0065,0.0,0.0,2024-07-30 23:05:59,0.0,0.0158,25.7,0,0
10350,10351,1,12,Rest,01:36:48,02:52:17,0.0,0.0046,0.0,0.0,2024-07-30 23:06:29,0.0,0.0066,25.7,0,0
10380,10381,1,12,Rest,01:37:18,02:52:47,0.0,0.0065,0.0,0.0,2024-07-30 23:06:59,0.0,0.0029,25.7,0,0
10410,10411,1,12,Rest,01:37:48,02:53:17,0.0,0.0043,0.0,0.0,2024-07-30 23:07:29,0.0,0.0273,25.8,0,0
10440,10441,1,12,Rest,01:38:18,02:53:47,0.0,0.004,0.0,0.0,2024-07-30 23:07:59,0.0,0.0264,25.8,0,0
10470,10471,1,12,Rest,01:38:48,02:54:17,0.0,0.0049,0.0,0.0,2024-07-30 23:08:29,0.0,0.0206,25.7,0,0
10500,10501,1,12,Rest,01:39:18,02:54:47,0.0,0.0043,0.0,0.0,2024-07-30 23:08:59,0.0,0.0038,25.7,0,0
10530,10531,1,12,Rest,01:39:48,02:55:17,0.0,0.0043,0.0,0.0,2024-07-30 23:09:29,0.0,0.0019,25.7,0,0
10560,10561,1,12,Rest,01:40:18,02:55:47,0.0,0.0024,0.0,0.0,2024-07-30 23:09:59,0.0,0.0126,25.7,0,0
10590,10591,1,12,Rest,01:40:48,02:56:17,0.0,0.0065,0.0,0.0,2024-07-30 23:10:29,0.0,0.0206,25.7,0,0
10620,10621,1,12,Rest,01:41:18,02:56:47,0.0,0.0043,0.0,0.0,2024-07-30 23:10:59,0.0,0.0224,25.7,0,0
10650,10651,1,12,Rest,01:41:48,02:57:17,0.0,0.0034,0.0,0.0,2024-07-30 23:11:29,0.0,0.0059,25.7,0,0
10680,10681,1,12,Rest,01:42:18,02:57:47,0.0,0.0065,0.0,0.0,2024-07-30 23:11:59,0.0,0.0164,25.8,0,0
10710,10711,1,12,Rest,01:42:48,02:58:17,0.0,0.0065,0.0,0.0,2024-07-30 23:12:29,0.0,0.0113,25.7,0,0
10740,10741,1,12,Rest,01:43:18,02:58:47,0.0,0.0034,0.0,0.0,2024-07-30 23:12:59,0.0,0.0027,25.7,0,0
10770,10771,1,12,Rest,01:43:48,02:59:17,0.0,0.0015,0.0,0.0,2024-07-30 23:13:29,0.0,0.0133,25.8,0,0
10800,10801,1,12,Rest,01:44:18,02:59:47,0.0,0.0071,0.0,0.0,2024-07-30 23:13:59,0.0,-0.0269,25.7,0,0
10830,10831,1,12,Rest,01:44:48,03:00:17,0.0,0.0077,0.0,0.0,2024-07-30 23:14:29,0.0,0.0261,25.7,0,0
10860,10861,1,12,Rest,01:45:18,03:00:47,0.0,0.0068,0.0,0.0,2024-07-30 23:14:59,0.0,0.0238,25.7,0,0
10890,10891,1,12,Rest,01:45:48,03:01:17,0.0,0.0065,0.0,0.0,2024-07-30 23:15:29,0.0,0.0166,25.7,0,0
10920,10921,1,12,Rest,01:46:18,03:01:47,0.0,0.0037,0.0,0.0,2024-07-30 23:15:59,0.0,0.0121,25.7,0,0
10950,10951,1,12,Rest,01:46:48,03:02:17,0.0,0.0049,0.0,0.0,2024-07-30 23:16:29,0.0,0.0055,25.7,0,0
10980,10981,1,12,Rest,01:47:18,03:02:47,0.0,0.0068,0.0,0.0,2024-07-30 23:16:59,0.0,-0.0242,25.7,0,0
11010,11011,1,12,Rest,01:47:48,03:03:17,0.0,0.0058,0.0,0.0,2024-07-30 23:17:29,0.0,-0.0081,25.7,0,0
11040,11041,1,12,Rest,01:48:18,03:03:47,0.0,0.0068,0.0,0.0,2024-07-30 23:17:59,0.0,0.0123,25.7,0,0
11070,11071,1,12,Rest,01:48:48,03:04:17,0.0,0.0043,0.0,0.0,2024-07-30 23:18:29,0.0,-0.0172,25.8,0,0
11100,11101,1,12,Rest,01:49:18,03:04:47,0.0,0.004,0.0,0.0,2024-07-30 23:18:59,0.0,-0.0116,25.7,0,0
11130,11131,1,12,Rest,01:49:48,03:05:17,0.0,0.0065,0.0,0.0,2024-07-30 23:19:29,0.0,0.027,25.7,0,0
11160,11161,1,12,Rest,01:50:18,03:05:47,0.0,0.0049,0.0,0.0,2024-07-30 23:19:59,0.0,-0.0164,25.8,0,0
11190,11191,1,12,Rest,01:50:48,03:06:17,0.0,0.0065,0.0,0.0,2024-07-30 23:20:29,0.0,-0.025,25.8,0,0
11220,11221,1,12,Rest,01:51:18,03:06:47,0.0,0.0062,0.0,0.0,2024-07-30 23:20:59,0.0,-0.0113,25.8,0,0
11250,11251,1,12,Rest,01:51:48,03:07:17,0.0,0.004,0.0,0.0,2024-07-30 23:21:29,0.0,-0.0266,25.8,0,0
11280,11281,1,12,Rest,01:52:18,03:07:47,0.0,0.0086,0.0,0.0,2024-07-30 23:21:59,0.0,-0.0195,25.7,0,0
11310,11311,1,12,Rest,01:52:48,03:08:17,0.0,0.0068,0.0,0.0,2024-07-30 23:22:29,0.0,-0.0076,25.8,0,0
11340,11341,1,12,Rest,01:53:18,03:08:47,0.0,0.0046,0.0,0.0,2024-07-30 23:22:59,0.0,-0.0099,25.8,0,0
11370,11371,1,12,Rest,01:53:48,03:09:17,0.0,0.0055,0.0,0.0,2024-07-30 23:23:29,0.0,-0.0183,25.8,0,0
11400,11401,1,12,Rest,01:54:18,03:09:47,0.0,0.0021,0.0,0.0,2024-07-30 23:23:59,0.0,0.0135,25.8,0,0
11430,11431,1,12,Rest,01:54:48,03:10:17,0.0,0.0027,0.0,0.0,2024-07-30 23:24:29,0.0,0.0252,25.9,0,0
11460,11461,1,12,Rest,01:55:18,03:10:47,0.0,0.004,0.0,0.0,2024-07-30 23:24:59,0.0,0.0152,25.8,0,0
11490,11491,1,12,Rest,01:55:48,03:11:17,0.0,0.0021,0.0,0.0,2024-07-30 23:25:29,0.0,-0.0189,25.8,0,0
11520,11521,1,12,Rest,01:56:18,03:11:47,0.0,0.0083,0.0,0.0,2024-07-30 23:25:59,0.0,0.0087,25.8,0,0
11550,11551,1,12,Rest,01:56:48,03:12:17,0.0,0.0021,0.0,0.0,2024-07-30 23:26:29,0.0,0.0063,25.8,0,0
11580,11581,1,12,Rest,01:57:18,03:12:47,0.0,0.0062,0.0,0.0,2024-07-30 23:26:59,0.0,0.0064,25.8,0,0
11610,11611,1,12,Rest,01:57:48,03:13:17,0.0,0.004,0.0,0.0,2024-07-30 23:27:29,0.0,0.0075,25.8,0,0
11640,11641,1,12,Rest,01:58:18,03:13:47,0.0,0.0058,0.0,0.0,2024-07-30 23:27:59,0.0,0.005,25.6,0,0
11670,11671,1,12,Rest,01:58:48,03:14:17,0.0,0.0043,0.0,0.0,2024-07-30 23:28:29,0.0,0.0206,25.8,0,0
11700,11701,1,12,Rest,01:59:18,03:14:47,0.0,0.0024,0.0,0.0,2024-07-30 23:28:59,0.0,0.0192,25.8,0,0
11730,11731,1,12,Rest,01:59:48,03:15:17,0.0,0.004,0.0,0.0,2024-07-30 23:29:29,0.0,0.003,25.8,0,0
11760,11761,1,12,Rest,02:00:18,03:15:47,0.0,0.0062,0.0,0.0,2024-07-30 23:29:59,0.0,-0.0179,25.8,0,0
11790,11791,1,12,Rest,02:00:48,03:16:17,0.0,0.0062,0.0,0.0,2024-07-30 23:30:29,0.0,0.0156,25.8,0,0
11820,11821,1,12,Rest,02:01:18,03:16:47,0.0,0.0037,0.0,0.0,2024-07-30 23:30:59,0.0,-0.0181,25.8,0,0
11850,11851,1,12,Rest,02:01:48,03:17:17,0.0,0.0058,0.0,0.0,2024-07-30 23:31:29,0.0,0.0072,25.8,0,0
11880,11881,1,12,Rest,02:02:18,03:17:47,0.0,0.0065,0.0,0.0,2024-07-30 23:31:59,0.0,0.0227,25.8,0,0
11910,11911,1,12,Rest,02:02:48,03:18:17,0.0,0.0055,0.0,0.0,2024-07-30 23:32:29,0.0,0.0206,25.8,0,0
11940,11941,1,12,Rest,02:03:18,03:18:47,0.0,0.0049,0.0,0.0,2024-07-30 23:32:59,0.0,0.0169,25.8,0,0
11970,11971,1,12,Rest,02:03:48,03:19:17,0.0,0.0071,0.0,0.0,2024-07-30 23:33:29,0.0,0.0281,25.8,0,0
12000,12001,1,12,Rest,02:04:18,03:19:47,0.0,0.0058,0.0,0.0,2024-07-30 23:33:59,0.0,0.003,25.7,0,0
12030,12031,1,12,Rest,02:04:48,03:20:17,0.0,0.0065,0.0,0.0,2024-07-30 23:34:29,0.0,0.0181,25.7,0,0
12060,12061,1,12,Rest,02:05:18,03:20:47,0.0,0.0037,0.0,0.0,2024-07-30 23:34:59,0.0,0.0249,25.7,0,0
12090,12091,1,12,Rest,02:05:48,03:21:17,0.0,0.0043,0.0,0.0,2024-07-30 23:35:29,0.0,0.0172,25.7,0,0
12120,12121,1,12,Rest,02:06:18,03:21:47,0.0,0.0024,0.0,0.0,2024-07-30 23:35:59,0.0,-0.0098,25.7,0,0
12150,12151,1,12,Rest,02:06:48,03:22:17,0.0,0.0021,0.0,0.0,2024-07-30 23:36:29,0.0,-0.0258,25.5,0,0
12180,12181,1,12,Rest,02:07:18,03:22:47,0.0,0.0046,0.0,0.0,2024-07-30 23:36:59,0.0,0.0266,25.7,0,0
12210,12211,1,12,Rest,02:07:48,03:23:17,0.0,0.0077,0.0,0.0,2024-07-30 23:37:29,0.0,-0.0035,25.7,0,0
12240,12241,1,12,Rest,02:08:18,03:23:47,0.0,0.0074,0.0,0.0,2024-07-30 23:37:59,0.0,0.0184,25.7,0,0
12270,12271,1,12,Rest,02:08:48,03:24:17,0.0,0.0058,0.0,0.0,2024-07-30 23:38:29,0.0,0.0126,25.7,0,0
12300,12301,1,12,Rest,02:09:18,03:24:47,0.0,0.0027,0.0,0.0,2024-07-30 23:38:59,0.0,-0.021,25.8,0,0
12330,12331,1,12,Rest,02:09:48,03:25:17,0.0,0.0043,0.0,0.0,2024-07-30 23:39:29,0.0,0.0103,25.7,0,0
12360,12361,1,12,Rest,02:10:18,03:25:47,0.0,0.0049,0.0,0.0,2024-07-30 23:39:59,0.0,0.0232,25.7,0,0
12390,12391,1,12,Rest,02:10:48,03:26:17,0.0,0.004,0.0,0.0,2024-07-30 23:40:29,0.0,0.0099,25.7,0,0
12420,12421,1,12,Rest,02:11:18,03:26:47,0.0,0.0074,0.0,0.0,2024-07-30 23:40:59,0.0,-0.0147,25.7,0,0
12450,12451,1,12,Rest,02:11:48,03:27:17,0.0,0.0062,0.0,0.0,2024-07-30 23:41:29,0.0,-0.0218,25.7,0,0
12480,12481,1,12,Rest,02:12:18,03:27:47,0.0,0.0018,0.0,0.0,2024-07-30 23:41:59,0.0,0.0099,25.7,0,0
12510,12511,1,12,Rest,02:12:48,03:28:17,0.0,0.0055,0.0,0.0,2024-07-30 23:42:29,0.0,0.0169,25.7,0,0
12540,12541,1,12,Rest,02:13:18,03:28:47,0.0,0.0049,0.0,0.0,2024-07-30 23:42:59,0.0,-0.0109,25.7,0,0
12570,12571,1,12,Rest,02:13:48,03:29:17,0.0,0.0055,0.0,0.0,2024-07-30 23:43:29,0.0,-0.0149,25.7,0,0
12600,12601,1,12,Rest,02:14:18,03:29:47,0.0,0.0034,0.0,0.0,2024-07-30 23:43:59,0.0,-0.0278,25.8,0,0
12630,12631,1,12,Rest,02:14:48,03:30:17,0.0,0.0065,0.0,0.0,2024-07-30 23:44:29,0.0,-0.0072,25.7,0,0
12660,12661,1,12,Rest,02:15:18,03:30:47,0.0,0.0062,0.0,0.0,2024-07-30 23:44:59,0.0,-0.0149,25.7,0,0
12690,12691,1,12,Rest,02:15:48,03:31:17,0.0,0.004,0.0,0.0,2024-07-30 23:45:29,0.0,-0.0106,25.7,0,0
12720,12721,1,12,Rest,02:16:18,03:31:47,0.0,0.0058,0.0,0.0,2024-07-30 23:45:59,0.0,0.0059,25.7,0,0
12750,12751,1,12,Rest,02:16:48,03:32:17,0.0,0.0086,0.0,0.0,2024-07-30 23:46:29,0.0,0.0201,25.7,0,0
12780,12781,1,12,Rest,02:17:18,03:32:47,0.0,0.008,0.0,0.0,2024-07-30 23:46:59,0.0,0.0099,25.7,0,0
12810,12811,1,12,Rest,02:17:48,03:33:17,0.0,0.0071,0.0,0.0,2024-07-30 23:47:29,0.0,0.0101,25.7,0,0
12840,12841,1,12,Rest,02:18:18,03:33:47,0.0,0.008,0.0,0.0,2024-07-30 23:47:59,0.0,0.0176,25.7,0,0
12870,12871,1,12,Rest,02:18:48,03:34:17,0.0,0.0071,0.0,0.0,2024-07-30 23:48:29,0.0,-0.0193,25.7,0,0
12900,12901,1,12,Rest,02:19:18,03:34:47,0.0,0.0055,0.0,0.0,2024-07-30 23:48:59,0.0,-0.0267,25.7,0,0
12930,12931,1,12,Rest,02:19:48,03:35:17,0.0,0.0058,0.0,0.0,2024-07-30 23:49:29,0.0,-0.0262,25.7,0,0
12960,12961,1,12,Rest,02:20:18,03:35:47,0.0,0.0065,0.0,0.0,2024-07-30 23:49:59,0.0,-0.0193,25.7,0,0
12990,12991,1,12,Rest,02:20:48,03:36:17,0.0,0.0071,0.0,0.0,2024-07-30 23:50:29,0.0,-0.0075,25.7,0,0
13020,13021,1,12,Rest,02:21:18,03:36:47,0.0,0.0043,0.0,0.0,2024-07-30 23:50:59,0.0,-0.0107,25.7,0,0
13050,13051,1,12,Rest,02:21:48,03:37:17,0.0,0.0055,0.0,0.0,2024-07-30 23:51:29,0.0,-0.0266,25.7,0,0
13080,13081,1,12,Rest,02:22:18,03:37:47,0.0,0.0055,0.0,0.0,2024-07-30 23:51:59,0.0,0.0144,25.7,0,0
13110,13111,1,12,Rest,02:22:48,03:38:17,0.0,0.0021,0.0,0.0,2024-07-30 23:52:29,0.0,0.0047,25.7,0,0
13140,13141,1,12,Rest,02:23:18,03:38:47,0.0,0.0049,0.0,0.0,2024-07-30 23:52:59,0.0,0.0238,25.5,0,0
13170,13171,1,12,Rest,02:23:48,03:39:17,0.0,0.0049,0.0,0.0,2024-07-30 23:53:29,0.0,-0.0246,25.7,0,0
13200,13201,1,12,Rest,02:24:18,03:39:47,0.0,0.0058,0.0,0.0,2024-07-30 23:53:59,0.0,0.0144,25.7,0,0
13230,13231,1,12,Rest,02:24:48,03:40:17,0.0,0.0068,0.0,0.0,2024-07-30 23:54:29,0.0,0.0121,25.7,0,0
13260,13261,1,12,Rest,02:25:18,03:40:47,0.0,0.004,0.0,0.0,2024-07-30 23:54:59,0.0,-0.0242,25.7,0,0
13290,13291,1,12,Rest,02:25:48,03:41:17,0.0,0.0055,0.0,0.0,2024-07-30 23:55:29,0.0,0.0073,25.7,0,0
13320,13321,1,12,Rest,02:26:18,03:41:47,0.0,0.0062,0.0,0.0,2024-07-30 23:55:59,0.0,0.0056,25.7,0,0
13350,13351,1,12,Rest,02:26:48,03:42:17,0.0,0.0018,0.0,0.0,2024-07-30 23:56:29,0.0,0.0073,25.7,0,0
13380,13381,1,12,Rest,02:27:18,03:42:47,0.0,0.0034,0.0,0.0,2024-07-30 23:56:59,0.0,0.0184,25.7,0,0
13410,13411,1,12,Rest,02:27:48,03:43:17,0.0,0.0034,0.0,0.0,2024-07-30 23:57:29,0.0,-0.0192,25.7,0,0
13440,13441,1,12,Rest,02:28:18,03:43:47,0.0,0.0049,0.0,0.0,2024-07-30 23:57:59,0.0,0.0204,25.7,0,0
13470,13471,1,12,Rest,02:28:48,03:44:17,0.0,0.0021,0.0,0.0,2024-07-30 23:58:29,0.0,0.0286,25.7,0,0
13500,13501,1,12,Rest,02:29:18,03:44:47,0.0,0.004,0.0,0.0,2024-07-30 23:58:59,0.0,0.0047,25.8,0,0
13530,13531,1,12,Rest,02:29:48,03:45:17,0.0,0.0024,0.0,0.0,2024-07-30 23:59:29,0.0,-0.0033,25.8,0,0
13560,13561,1,12,Rest,02:30:18,03:45:47,0.0,0.0055,0.0,0.0,2024-07-30 23:59:59,0.0,0.0224,25.7,0,0
13590,13591,1,12,Rest,02:30:48,03:46:17,0.0,0.0046,0.0,0.0,2024-07-31 00:00:29,0.0,0.0149,25.8,0,0
13620,13621,1,12,Rest,02:31:18,03:46:47,0.0,0.0062,0.0,0.0,2024-07-31 00:00:59,0.0,0.0129,25.8,0,0
13650,13651,1,12,Rest,02:31:48,03:47:17,0.0,0.0058,0.0,0.0,2024-07-31 00:01:29,0.0,0.0139,25.8,0,0
13680,13681,1,12,Rest,02:32:18,03:47:47,0.0,0.0043,0.0,0.0,2024-07-31 00:01:59,0.0,0.003,25.8,0,0
13710,13711,1,12,Rest,02:32:48,03:48:17,0.0,0.0065,0.0,0.0,2024-07-31 00:02:29,0.0,-0.0123,25.8,0,0
13740,13741,1,12,Rest,02:33:18,03:48:47,0.0,0.0049,0.0,0.0,2024-07-31 00:02:59,0.0,-0.0272,25.7,0,0
13770,13771,1,12,Rest,02:33:48,03:49:17,0.0,0.0074,0.0,0.0,2024-07-31 00:03:29,0.0,0.019,25.8,0,0
13800,13801,1,12,Rest,02:34:18,03:49:47,0.0,0.0043,0.0,0.0,2024-07-31 00:03:59,0.0,-0.0053,25.8,0,0
13830,13831,1,12,Rest,02:34:48,03:50:17,0.0,0.0068,0.0,0.0,2024-07-31 00:04:29,0.0,-0.0073,25.8,0,0
13860,13861,1,12,Rest,02:35:18,03:50:47,0.0,0.0018,0.0,0.0,2024-07-31 00:04:59,0.0,0.0116,25.8,0,0
13890,13891,1,12,Rest,02:35:48,03:51:17,0.0,0.0071,0.0,0.0,2024-07-31 00:05:29,0.0,0.0103,25.8,0,0
13920,13921,1,12,Rest,02:36:18,03:51:47,0.0,0.0055,0.0,0.0,2024-07-31 00:05:59,0.0,-0.015,25.8,0,0
13950,13951,1,12,Rest,02:36:48,03:52:17,0.0,0.0071,0.0,0.0,2024-07-31 00:06:29,0.0,-0.0284,25.8,0,0
13980,13981,1,12,Rest,02:37:18,03:52:47,0.0,0.0071,0.0,0.0,2024-07-31 00:06:59,0.0,-0.0126,25.8,0,0
14010,14011,1,12,Rest,02:37:48,03:53:17,0.0,0.0074,0.0,0.0,2024-07-31 00:07:29,0.0,0.0044,25.8,0,0
14040,14041,1,12,Rest,02:38:18,03:53:47,0.0,0.0062,0.0,0.0,2024-07-31 00:07:59,0.0,-0.0126,25.7,0,0
14070,14071,1,12,Rest,02:38:48,03:54:17,0.0,0.0077,0.0,0.0,2024-07-31 00:08:29,0.0,-0.0078,25.8,0,0
14100,14101,1,12,Rest,02:39:18,03:54:47,0.0,0.0062,0.0,0.0,2024-07-31 00:08:59,0.0,0.0109,25.7,0,0
14130,14131,1,12,Rest,02:39:48,03:55:17,0.0,0.0055,0.0,0.0,2024-07-31 00:09:29,0.0,0.0218,25.8,0,0
14160,14161,1,12,Rest,02:40:18,03:55:47,0.0,0.0049,0.0,0.0,2024-07-31 00:09:59,0.0,-0.0224,25.7,0,0
14190,14191,1,12,Rest,02:40:48,03:56:17,0.0,0.0037,0.0,0.0,2024-07-31 00:10:29,0.0,0.0135,25.7,0,0
14220,14221,1,12,Rest,02:41:18,03:56:47,0.0,0.0018,0.0,0.0,2024-07-31 00:10:59,0.0,-0.0172,25.7,0,0
14250,14251,1,12,Rest,02:41:48,03:57:17,0.0,0.0086,0.0,0.0,2024-07-31 00:11:29,0.0,0.0184,25.7,0,0
14280,14281,1,12,Rest,02:42:18,03:57:47,0.0,0.0055,0.0,0.0,2024-07-31 00:11:59,0.0,0.0221,25.7,0,0
14310,14311,1,12,Rest,02:42:48,03:58:17,0.0,0.0043,0.0,0.0,2024-07-31 00:12:29,0.0,-0.0179,25.7,0,0
14340,14341,1,12,Rest,02:43:18,03:58:47,0.0,0.0055,0.0,0.0,2024-07-31 00:12:59,0.0,-0.0255,25.7,0,0
14370,14371,1,12,Rest,02:43:48,03:59:17,0.0,0.0034,0.0,0.0,2024-07-31 00:13:29,0.0,0.0192,25.7,0,0
14400,14401,1,12,Rest,02:44:18,03:59:47,0.0,0.0055,0.0,0.0,2024-07-31 00:13:59,0.0,-0.003,25.8,0,0
14430,14431,1,12,Rest,02:44:48,04:00:17,0.0,0.0049,0.0,0.0,2024-07-31 00:14:29,0.0,0.0175,25.7,0,0
14460,14461,1,12,Rest,02:45:18,04:00:47,0.0,0.0065,0.0,0.0,2024-07-31 00:14:59,0.0,0.0227,25.7,0,0
14490,14491,1,12,Rest,02:45:48,04:01:17,0.0,0.008,0.0,0.0,2024-07-31 00:15:29,0.0,0.0033,25.7,0,0
14520,14521,1,12,Rest,02:46:18,04:01:47,0.0,0.0046,0.0,0.0,2024-07-31 00:15:59,0.0,0.0183,25.7,0,0
14550,14551,1,12,Rest,02:46:48,04:02:17,0.0,0.0058,0.0,0.0,2024-07-31 00:16:29,0.0,-0.0167,25.7,0,0
14580,14581,1,12,Rest,02:47:18,04:02:47,0.0,0.0065,0.0,0.0,2024-07-31 00:16:59,0.0,-0.0212,25.7,0,0
14610,14611,1,12,Rest,02:47:48,04:03:17,0.0,0.0018,0.0,0.0,2024-07-31 00:17:29,0.0,-0.0083,25.7,0,0
14623,14624,1,12,Rest,02:48:01,04:03:30,0.0,0.0068,0.0,0.0,2024-07-31 00:17:42,0.0,0.0029,25.7,0,0